{
  "participant": {
    "id": "P001",
    "languageGroup": "L2",
    "startTime": "2025-07-18T23:31:09.455Z"
  },
  "experiment": {
    "config": {
      "practiceTrials": 3,
      "totalTrials": 24,
      "pauseAfterTrials": 0,
      "sentenceDisplayTime": 2000,
      "feedbackTime": 1500
    },
    "data": [
      {
        "trial": 1,
        "sentence": "Die Frau liest ein Buch.",
        "condition": "simple_non_ambiguous",
        "expected": "grammatical",
        "response": "grammatical",
        "responseTime": 7061,
        "correct": true,
        "timestamp": "2025-07-18T23:31:38.944Z"
      },
      {
        "trial": 2,
        "sentence": "Der Hund beißt den Mann mit dem Stock schlägt.",
        "condition": "ambiguous_difficult",
        "expected": "ungrammatical",
        "response": "grammatical",
        "responseTime": 1623,
        "correct": false,
        "timestamp": "2025-07-18T23:31:41.068Z"
      },
      {
        "trial": 3,
        "sentence": "Das Auto, das ich gekauft habe, ist neu.",
        "condition": "complex_non_ambiguous",
        "expected": "grammatical",
        "response": "grammatical",
        "responseTime": 2380,
        "correct": true,
        "timestamp": "2025-07-18T23:31:43.949Z"
      },
      {
        "trial": 4,
        "sentence": "Die Mutter füttert das Baby mit der Flasche trinkt.",
        "condition": "ambiguous_difficult",
        "expected": "ungrammatical",
        "response": "grammatical",
        "responseTime": 695,
        "correct": false,
        "timestamp": "2025-07-18T23:31:45.144Z"
      },
      {
        "trial": 5,
        "sentence": "Das Kind isst den Apfel mit dem Messer schneidet.",
        "condition": "ambiguous_difficult",
        "expected": "ungrammatical",
        "response": "grammatical",
        "responseTime": 450,
        "correct": false,
        "timestamp": "2025-07-18T23:31:46.095Z"
      },
      {
        "trial": 6,
        "sentence": "Das Auto fährt schnell.",
        "condition": "simple_non_ambiguous",
        "expected": "grammatical",
        "response": "grammatical",
        "responseTime": 395,
        "correct": true,
        "timestamp": "2025-07-18T23:31:46.991Z"
      },
      {
        "trial": 7,
        "sentence": "Die Mutter füttert das Baby mit der Flasche.",
        "condition": "ambiguous_easy",
        "expected": "grammatical",
        "response": "grammatical",
        "responseTime": 378,
        "correct": true,
        "timestamp": "2025-07-18T23:31:47.872Z"
      },
      {
        "trial": 8,
        "sentence": "Die Frau sieht den Mann mit dem Fernglas.",
        "condition": "ambiguous_easy",
        "expected": "grammatical",
        "response": "grammatical",
        "responseTime": 409,
        "correct": true,
        "timestamp": "2025-07-18T23:31:48.781Z"
      },
      {
        "trial": 9,
        "sentence": "Die Kinder, die draußen spielen, sind laut.",
        "condition": "complex_non_ambiguous",
        "expected": "grammatical",
        "response": "grammatical",
        "responseTime": 339,
        "correct": true,
        "timestamp": "2025-07-18T23:31:49.621Z"
      },
      {
        "trial": 10,
        "sentence": "Der Lehrer schlägt den Schüler mit dem Lineal bestraft.",
        "condition": "ambiguous_difficult",
        "expected": "ungrammatical",
        "response": "grammatical",
        "responseTime": 339,
        "correct": false,
        "timestamp": "2025-07-18T23:31:50.461Z"
      },
      {
        "trial": 11,
        "sentence": "Die Frau, die ich gestern gesehen habe, ist meine Schwester.",
        "condition": "complex_non_ambiguous",
        "expected": "grammatical",
        "response": "grammatical",
        "responseTime": 378,
        "correct": true,
        "timestamp": "2025-07-18T23:31:51.341Z"
      },
      {
        "trial": 12,
        "sentence": "Der Gärtner gießt die Blumen mit der Gießkanne bewässert.",
        "condition": "ambiguous_difficult",
        "expected": "ungrammatical",
        "response": "grammatical",
        "responseTime": 383,
        "correct": false,
        "timestamp": "2025-07-18T23:31:52.225Z"
      },
      {
        "trial": 13,
        "sentence": "Das Kind spielt mit dem Ball.",
        "condition": "simple_non_ambiguous",
        "expected": "grammatical",
        "response": "grammatical",
        "responseTime": 367,
        "correct": true,
        "timestamp": "2025-07-18T23:31:53.093Z"
      },
      {
        "trial": 14,
        "sentence": "Der Mann, der gestern gekommen ist, arbeitet hier.",
        "condition": "complex_non_ambiguous",
        "expected": "grammatical",
        "response": "grammatical",
        "responseTime": 349,
        "correct": true,
        "timestamp": "2025-07-18T23:31:53.943Z"
      },
      {
        "trial": 15,
        "sentence": "Das Buch, das ich gelesen habe, war interessant.",
        "condition": "complex_non_ambiguous",
        "expected": "grammatical",
        "response": "grammatical",
        "responseTime": 338,
        "correct": true,
        "timestamp": "2025-07-18T23:31:54.782Z"
      },
      {
        "trial": 16,
        "sentence": "Der Lehrer schlägt den Schüler mit dem Lineal.",
        "condition": "ambiguous_easy",
        "expected": "grammatical",
        "response": "grammatical",
        "responseTime": 378,
        "correct": true,
        "timestamp": "2025-07-18T23:31:55.661Z"
      },
      {
        "trial": 17,
        "sentence": "Die Katze trinkt Milch.",
        "condition": "simple_non_ambiguous",
        "expected": "grammatical",
        "response": "grammatical",
        "responseTime": 387,
        "correct": true,
        "timestamp": "2025-07-18T23:31:56.549Z"
      },
      {
        "trial": 18,
        "sentence": "Das Kind isst den Apfel mit dem Messer.",
        "condition": "ambiguous_easy",
        "expected": "grammatical",
        "response": "grammatical",
        "responseTime": 427,
        "correct": true,
        "timestamp": "2025-07-18T23:31:57.477Z"
      },
      {
        "trial": 19,
        "sentence": "Der Hund, der im Garten spielt, ist braun.",
        "condition": "complex_non_ambiguous",
        "expected": "grammatical",
        "response": "grammatical",
        "responseTime": 414,
        "correct": true,
        "timestamp": "2025-07-18T23:31:58.391Z"
      },
      {
        "trial": 20,
        "sentence": "Die Frau sieht den Mann mit dem Fernglas beobachtet.",
        "condition": "ambiguous_difficult",
        "expected": "ungrammatical",
        "response": "grammatical",
        "responseTime": 474,
        "correct": false,
        "timestamp": "2025-07-18T23:31:59.366Z"
      },
      {
        "trial": 21,
        "sentence": "Der Hund schläft im Garten.",
        "condition": "simple_non_ambiguous",
        "expected": "grammatical",
        "response": "grammatical",
        "responseTime": 658,
        "correct": true,
        "timestamp": "2025-07-18T23:32:00.525Z"
      },
      {
        "trial": 22,
        "sentence": "Der Gärtner gießt die Blumen mit der Gießkanne.",
        "condition": "ambiguous_easy",
        "expected": "grammatical",
        "response": "grammatical",
        "responseTime": 476,
        "correct": true,
        "timestamp": "2025-07-18T23:32:01.502Z"
      },
      {
        "trial": 23,
        "sentence": "Der Hund beißt den Mann mit dem Stock.",
        "condition": "ambiguous_easy",
        "expected": "grammatical",
        "response": "grammatical",
        "responseTime": 407,
        "correct": true,
        "timestamp": "2025-07-18T23:32:02.409Z"
      },
      {
        "trial": 24,
        "sentence": "Der Mann arbeitet im Büro.",
        "condition": "simple_non_ambiguous",
        "expected": "grammatical",
        "response": "grammatical",
        "responseTime": 630,
        "correct": true,
        "timestamp": "2025-07-18T23:32:03.540Z"
      }
    ],
    "endTime": "2025-07-18T23:32:04.040Z"
  }
}